File: collect-stocks/T/TGA.csv
,Date,Avg
1,01/10/2019,2.03
2,01/09/2019,2.07
3,01/08/2019,2.035
4,01/07/2019,2.03
5,01/04/2019,1.92
6,01/03/2019,1.825
7,01/02/2019,1.855
8,12/31/2018,1.785
9,12/28/2018,1.68
10,12/27/2018,1.63
11,12/26/2018,1.58
12,12/24/2018,1.535
13,12/21/2018,1.595
14,12/20/2018,1.60495
15,12/19/2018,1.695
16,12/18/2018,1.73915
17,12/17/2018,1.795
18,12/14/2018,1.82365
19,12/13/2018,1.8725
20,12/12/2018,1.91
21,12/11/2018,1.865
22,12/10/2018,1.8877
23,12/07/2018,2.0175
24,12/06/2018,2.0353
25,12/04/2018,2.145
26,12/03/2018,2.19
27,11/30/2018,2.135
28,11/29/2018,2.095
29,11/28/2018,2.015
30,11/27/2018,2.07
31,11/26/2018,2.175
32,11/23/2018,2.135
33,11/21/2018,2.19
34,11/20/2018,2.19
35,11/19/2018,2.335
36,11/16/2018,2.19
37,11/15/2018,2.155
38,11/14/2018,2.27
39,11/13/2018,2.27
40,11/12/2018,2.125
41,11/09/2018,2.15
42,11/08/2018,2.255
43,11/07/2018,2.44
44,11/06/2018,2.37
45,11/05/2018,2.36
46,11/02/2018,2.395
47,11/01/2018,2.375
48,10/31/2018,2.36
49,10/30/2018,2.265
50,10/29/2018,2.3775
51,10/26/2018,2.445
52,10/25/2018,2.385
53,10/24/2018,2.25
54,10/23/2018,2.31
55,10/22/2018,2.775
56,10/19/2018,3.035
57,10/18/2018,3.0125
58,10/17/2018,3.07
59,10/16/2018,3.07
60,10/15/2018,3.075
61,10/12/2018,3.11
62,10/11/2018,3.1
63,10/10/2018,3.265
64,10/09/2018,3.275
65,10/08/2018,3.23
66,10/05/2018,3.23375
67,10/04/2018,3.375
68,10/03/2018,3.43355
69,10/02/2018,3.505
70,10/01/2018,3.46
71,09/28/2018,3.35375
72,09/27/2018,3.315
73,09/26/2018,3.385
74,09/25/2018,3.55495
75,09/24/2018,3.395
76,09/21/2018,3.293
77,09/20/2018,3.325
78,09/19/2018,3.38
79,09/18/2018,3.4784
80,09/17/2018,3.5875
81,09/14/2018,3.595
82,09/13/2018,3.62
83,09/12/2018,3.67495
84,09/11/2018,3.6655
85,09/10/2018,3.3725
86,09/07/2018,3.2
87,09/06/2018,3.265
88,09/05/2018,3.28
89,09/04/2018,3.32
90,08/31/2018,3.35
91,08/30/2018,3.48
92,08/29/2018,3.46
93,08/28/2018,3.475
94,08/27/2018,3.475
95,08/24/2018,3.515
96,08/23/2018,3.375
97,08/22/2018,3.5025
98,08/21/2018,3.445
99,08/20/2018,3.24
100,08/17/2018,3.1425
101,08/16/2018,2.99505
102,08/15/2018,2.975
103,08/14/2018,3.225
104,08/13/2018,3.12
105,08/10/2018,3.185
106,08/09/2018,3.185
107,08/08/2018,3.2
108,08/07/2018,3.19
109,08/06/2018,3.185
110,08/03/2018,3.215
111,08/02/2018,3.1951
112,08/01/2018,3.215
113,07/31/2018,3.19
114,07/30/2018,3.17
115,07/27/2018,3.2475
116,07/26/2018,3.34
117,07/25/2018,3.385
118,07/24/2018,3.45
119,07/23/2018,3.43
120,07/20/2018,3.5016
121,07/19/2018,3.6305
122,07/18/2018,3.50885
123,07/17/2018,3.63
124,07/16/2018,3.835
125,07/13/2018,3.945
126,07/12/2018,3.775
127,07/11/2018,3.625
128,07/10/2018,3.4
129,07/09/2018,3.125
130,07/06/2018,2.905
131,07/05/2018,2.865
132,07/03/2018,2.89305
133,07/02/2018,2.695
134,06/29/2018,2.76
135,06/28/2018,2.745
136,06/27/2018,2.56
137,06/26/2018,2.43
138,06/25/2018,2.37505
139,06/22/2018,2.38245
140,06/21/2018,2.32
141,06/20/2018,2.38875
142,06/19/2018,2.34
143,06/18/2018,2.305
144,06/15/2018,2.27
145,06/14/2018,2.38995
146,06/13/2018,2.405
147,06/12/2018,2.41495
148,06/11/2018,2.36
149,06/08/2018,2.425
150,06/07/2018,2.465
151,06/06/2018,2.40585
152,06/05/2018,2.33
153,06/04/2018,2.445
154,06/01/2018,2.505
155,05/31/2018,2.505
156,05/30/2018,2.37505
157,05/29/2018,2.2255
158,05/25/2018,2.21
159,05/24/2018,2.3704
160,05/23/2018,2.345
161,05/22/2018,2.47005
162,05/21/2018,2.595
163,05/18/2018,2.1625
164,05/17/2018,2.06715
165,05/16/2018,1.985
166,05/15/2018,1.96
167,05/14/2018,1.9005
168,05/11/2018,1.895
169,05/10/2018,2.06
170,05/09/2018,2.08
171,05/08/2018,1.98
172,05/07/2018,1.945
173,05/04/2018,1.89
174,05/03/2018,1.895
175,05/02/2018,1.8783
176,05/01/2018,1.8416
177,04/30/2018,1.735
178,04/27/2018,1.69
179,04/26/2018,1.65
180,04/25/2018,1.605
181,04/24/2018,1.59075
182,04/23/2018,1.5655
183,04/20/2018,1.545
184,04/19/2018,1.44
185,04/18/2018,1.425
186,04/17/2018,1.395
187,04/16/2018,1.375
188,04/13/2018,1.36
189,04/12/2018,1.33
190,04/11/2018,1.315
191,04/10/2018,1.305
192,04/09/2018,1.29
193,04/06/2018,1.27385
194,04/05/2018,1.29
195,04/04/2018,1.31
196,04/03/2018,1.325
197,04/02/2018,1.32495
198,03/29/2018,1.3282
199,03/28/2018,1.33
200,03/27/2018,1.365
201,03/26/2018,1.42
202,03/23/2018,1.44005
203,03/22/2018,1.43
204,03/21/2018,1.375
205,03/20/2018,1.345
206,03/19/2018,1.335
207,03/16/2018,1.335
208,03/15/2018,1.33
209,03/14/2018,1.33
210,03/13/2018,1.32
211,03/12/2018,1.3
212,03/09/2018,1.295
213,03/08/2018,1.29
214,03/07/2018,1.295
215,03/06/2018,1.28255
216,03/05/2018,1.265
217,03/02/2018,1.26245
218,03/01/2018,1.3094
219,02/28/2018,1.29
220,02/27/2018,1.31
221,02/26/2018,1.335
222,02/23/2018,1.3
223,02/22/2018,1.31
224,02/21/2018,1.31
225,02/20/2018,1.32
226,02/16/2018,1.325
227,02/15/2018,1.325
228,02/14/2018,1.325
229,02/13/2018,1.325
230,02/12/2018,1.3
231,02/09/2018,1.28
232,02/08/2018,1.3326
233,02/07/2018,1.42
234,02/06/2018,1.3801
235,02/05/2018,1.39
236,02/02/2018,1.435
237,02/01/2018,1.455
238,01/31/2018,1.43
239,01/30/2018,1.435
240,01/29/2018,1.48
241,01/26/2018,1.495
242,01/25/2018,1.48
243,01/24/2018,1.465
244,01/23/2018,1.4655
245,01/22/2018,1.475
246,01/19/2018,1.47
247,01/18/2018,1.465
248,01/17/2018,1.45
249,01/16/2018,1.46
250,01/12/2018,1.47
251,01/11/2018,1.47
252,01/10/2018,1.44
253,01/09/2018,1.45
254,01/08/2018,1.43
255,01/05/2018,1.425
256,01/04/2018,1.42125
257,01/03/2018,1.41
258,01/02/2018,1.46
259,12/29/2017,1.4255
260,12/28/2017,1.405
261,12/27/2017,1.3545
262,12/26/2017,1.35135
263,12/22/2017,1.35135
264,12/21/2017,1.3072
265,12/20/2017,1.305
266,12/19/2017,1.27
267,12/18/2017,1.295
268,12/15/2017,1.3155
269,12/14/2017,1.325
270,12/13/2017,1.345
271,12/12/2017,1.38
272,12/11/2017,1.34
273,12/08/2017,1.355
274,12/07/2017,1.36185
275,12/06/2017,1.4
276,12/05/2017,1.435
277,12/04/2017,1.445
278,12/01/2017,1.475
279,11/30/2017,1.445
280,11/29/2017,1.42
281,11/28/2017,1.46
282,11/27/2017,1.495
283,11/24/2017,1.48005
284,11/22/2017,1.505
285,11/21/2017,1.475
286,11/20/2017,1.47
287,11/17/2017,1.47
288,11/16/2017,1.455
289,11/15/2017,1.465
290,11/14/2017,1.485
291,11/13/2017,1.49
292,11/10/2017,1.51
293,11/09/2017,1.52
294,11/08/2017,1.542
295,11/07/2017,1.525
296,11/06/2017,1.54
297,11/03/2017,1.56
298,11/02/2017,1.795
299,11/01/2017,1.7245
300,10/31/2017,1.63
301,10/30/2017,1.64
302,10/27/2017,1.57
303,10/26/2017,1.5395
304,10/25/2017,1.56
305,10/24/2017,1.56
306,10/23/2017,1.565
307,10/20/2017,1.56
308,10/19/2017,1.555
309,10/18/2017,1.565
310,10/17/2017,1.58
311,10/16/2017,1.615
312,10/13/2017,1.6
313,10/12/2017,1.61
314,10/11/2017,1.59
315,10/10/2017,1.555
316,10/09/2017,1.5067
317,10/06/2017,1.5067
318,10/05/2017,1.465
319,10/04/2017,1.425
320,10/03/2017,1.38885
321,10/02/2017,1.42
322,09/29/2017,1.41
323,09/28/2017,1.37
324,09/27/2017,1.345
325,09/26/2017,1.3
326,09/25/2017,1.27505
327,09/22/2017,1.24105
328,09/21/2017,1.19
329,09/20/2017,1.16
330,09/19/2017,1.145
331,09/18/2017,1.13
332,09/15/2017,1.165
333,09/14/2017,1.245
334,09/13/2017,1.185
335,09/12/2017,1.195
336,09/11/2017,1.25
337,09/08/2017,1.27
338,09/07/2017,1.31
339,09/06/2017,1.305
340,09/05/2017,1.3064
341,09/01/2017,1.325
342,08/31/2017,1.29
343,08/30/2017,1.265
344,08/29/2017,1.285
345,08/28/2017,1.25
346,08/25/2017,1.255
347,08/24/2017,1.265
348,08/23/2017,1.22
349,08/22/2017,1.205
350,08/21/2017,1.2
351,08/18/2017,1.205
352,08/17/2017,1.22
353,08/16/2017,1.23
354,08/15/2017,1.2
355,08/14/2017,1.185
356,08/11/2017,1.215
357,08/10/2017,1.225
358,08/09/2017,1.25
359,08/08/2017,1.255
360,08/07/2017,1.26615
361,08/04/2017,1.26615
362,08/03/2017,1.29
363,08/02/2017,1.32
364,08/01/2017,1.345
365,07/31/2017,1.37
366,07/28/2017,1.379
367,07/27/2017,1.345
368,07/26/2017,1.3445
369,07/25/2017,1.35
370,07/24/2017,1.36
371,07/21/2017,1.355
372,07/20/2017,1.36
373,07/19/2017,1.365
374,07/18/2017,1.355
375,07/17/2017,1.325
376,07/14/2017,1.33
377,07/13/2017,1.315
378,07/12/2017,1.305
379,07/11/2017,1.275
380,07/10/2017,1.285
381,07/07/2017,1.3
382,07/06/2017,1.3175
383,07/05/2017,1.3155
384,07/03/2017,1.325
385,06/30/2017,1.32
386,06/29/2017,1.3
387,06/28/2017,1.285
388,06/27/2017,1.3
389,06/26/2017,1.3015
390,06/23/2017,1.285
391,06/22/2017,1.27
392,06/21/2017,1.2725
393,06/20/2017,1.29
394,06/19/2017,1.335
395,06/16/2017,1.255
396,06/15/2017,1.24
397,06/14/2017,1.295
398,06/13/2017,1.335
399,06/12/2017,1.365
400,06/09/2017,1.375
401,06/08/2017,1.375
402,06/07/2017,1.385
403,06/06/2017,1.405
404,06/05/2017,1.42655
405,06/02/2017,1.43
406,06/01/2017,1.47
407,05/31/2017,1.4292
408,05/30/2017,1.4607
409,05/26/2017,1.5
410,05/25/2017,1.5212
411,05/24/2017,1.57
412,05/23/2017,1.575
413,05/22/2017,1.6082
414,05/19/2017,1.6082
415,05/18/2017,1.565
416,05/17/2017,1.59
417,05/16/2017,1.62
418,05/15/2017,1.6
419,05/12/2017,1.51
420,05/11/2017,1.465
421,05/10/2017,1.45875
422,05/09/2017,1.44
423,05/08/2017,1.45
424,05/05/2017,1.39
425,05/04/2017,1.405
426,05/03/2017,1.455
427,05/02/2017,1.47
428,05/01/2017,1.475
429,04/28/2017,1.485
430,04/27/2017,1.49
431,04/26/2017,1.5
432,04/25/2017,1.5
433,04/24/2017,1.515
434,04/21/2017,1.5225
435,04/20/2017,1.5442
436,04/19/2017,1.52
437,04/18/2017,1.525
438,04/17/2017,1.555
439,04/13/2017,1.61
440,04/12/2017,1.625
441,04/11/2017,1.62
442,04/10/2017,1.615
443,04/07/2017,1.585
444,04/06/2017,1.6
445,04/05/2017,1.59
446,04/04/2017,1.58
447,04/03/2017,1.56
448,03/31/2017,1.585
449,03/30/2017,1.60135
450,03/29/2017,1.57
451,03/28/2017,1.525
452,03/27/2017,1.485
453,03/24/2017,1.525
454,03/23/2017,1.5
455,03/22/2017,1.505
456,03/21/2017,1.54
457,03/20/2017,1.5375
458,03/17/2017,1.605
459,03/16/2017,1.545
460,03/15/2017,1.53
461,03/14/2017,1.566
462,03/13/2017,1.605
463,03/10/2017,1.615
464,03/09/2017,1.5799
465,03/08/2017,1.58
466,03/07/2017,1.595
467,03/06/2017,1.61
468,03/03/2017,1.645
469,03/02/2017,1.655
470,03/01/2017,1.68
471,02/28/2017,1.65
472,02/27/2017,1.66
473,02/24/2017,1.67
474,02/23/2017,1.7
475,02/22/2017,1.73965
476,02/21/2017,1.785
477,02/17/2017,1.745
478,02/16/2017,1.765
479,02/15/2017,1.7627
480,02/14/2017,1.8
481,02/13/2017,1.77
482,02/10/2017,1.765
483,02/09/2017,1.64
484,02/08/2017,1.7
485,02/07/2017,1.705
486,02/06/2017,1.695
487,02/03/2017,1.75
488,02/02/2017,1.73
489,02/01/2017,1.725
490,01/31/2017,1.70495
491,01/30/2017,1.685
492,01/27/2017,1.76
493,01/26/2017,1.77
494,01/25/2017,1.76495
495,01/24/2017,1.735
496,01/23/2017,1.72
497,01/20/2017,1.74
498,01/19/2017,1.73
499,01/18/2017,1.75
500,01/17/2017,1.8101
501,01/13/2017,1.77
502,01/12/2017,1.795
503,01/11/2017,1.8
504,01/10/2017,1.765
505,01/09/2017,1.765
506,01/06/2017,1.83
507,01/05/2017,1.85
508,01/04/2017,1.825
509,01/03/2017,1.76015
510,12/30/2016,1.685
511,12/29/2016,1.7
512,12/28/2016,1.7
513,12/27/2016,1.69
514,12/23/2016,1.67505
515,12/22/2016,1.695
516,12/21/2016,1.705
517,12/20/2016,1.685
518,12/19/2016,1.7025
519,12/16/2016,1.68325
520,12/15/2016,1.685
521,12/14/2016,1.78
522,12/13/2016,1.815
523,12/12/2016,1.825
524,12/09/2016,1.7575
525,12/08/2016,1.74
526,12/07/2016,1.71575
527,12/06/2016,1.71005
528,12/05/2016,1.895
529,12/02/2016,1.9
530,12/01/2016,1.927
531,11/30/2016,1.775
532,11/29/2016,1.725
533,11/28/2016,1.77945
534,11/25/2016,1.795
535,11/23/2016,1.7731
536,11/22/2016,1.79
537,11/21/2016,1.82
538,11/18/2016,1.775
539,11/17/2016,1.8
540,11/16/2016,1.81
541,11/15/2016,1.825
542,11/14/2016,1.765
543,11/11/2016,1.785
544,11/10/2016,1.825
545,11/09/2016,1.805
546,11/08/2016,1.82
547,11/07/2016,1.8355
548,11/04/2016,1.81
549,11/03/2016,1.805
550,11/02/2016,1.79
551,11/01/2016,1.82
552,10/31/2016,1.83
553,10/28/2016,1.855
554,10/27/2016,1.875
555,10/26/2016,1.87495
556,10/25/2016,1.905
557,10/24/2016,1.995
558,10/21/2016,2.0275
559,10/20/2016,2.065
560,10/19/2016,2.08
561,10/18/2016,2.085
562,10/17/2016,2.09
563,10/14/2016,2.12
564,10/13/2016,2.075
565,10/12/2016,2.085
566,10/11/2016,2.1
567,10/10/2016,2.095
568,10/07/2016,2.08
569,10/06/2016,2.055
570,10/05/2016,2.03
571,10/04/2016,2.0105
572,10/03/2016,1.9625
573,09/30/2016,1.975
574,09/29/2016,1.965
575,09/28/2016,1.88
576,09/27/2016,1.8
577,09/26/2016,1.895
578,09/23/2016,1.89
579,09/22/2016,2.01
580,09/21/2016,1.985
581,09/20/2016,1.955
582,09/19/2016,1.955
583,09/16/2016,1.915
584,09/15/2016,1.93
585,09/14/2016,1.93
586,09/13/2016,1.995
587,09/12/2016,2.12
588,09/09/2016,2.09
589,09/08/2016,1.975
590,09/07/2016,1.96
591,09/06/2016,1.915
592,09/02/2016,1.9
593,09/01/2016,1.83
594,08/31/2016,1.84
595,08/30/2016,1.855
596,08/29/2016,1.845
597,08/26/2016,1.87
598,08/25/2016,1.91
599,08/24/2016,1.965
600,08/23/2016,1.965
601,08/22/2016,1.9275
602,08/19/2016,2.06
603,08/18/2016,2.115
604,08/17/2016,1.983
605,08/16/2016,1.94
606,08/15/2016,1.94
607,08/12/2016,1.95
608,08/11/2016,1.81505
609,08/10/2016,1.60825
610,08/09/2016,1.615
611,08/08/2016,1.63
612,08/05/2016,1.595
613,08/04/2016,1.6
614,08/03/2016,1.61
615,08/02/2016,1.635
616,08/01/2016,1.65505
617,07/29/2016,1.65505
618,07/28/2016,1.62
619,07/27/2016,1.66
620,07/26/2016,1.62995
621,07/25/2016,1.6635
622,07/22/2016,1.725
623,07/21/2016,1.735
624,07/20/2016,1.71505
625,07/19/2016,1.77
626,07/18/2016,1.78
627,07/15/2016,1.78
628,07/14/2016,1.785
629,07/13/2016,1.77
630,07/12/2016,1.7675
631,07/11/2016,1.745
632,07/08/2016,1.755
633,07/07/2016,1.785
634,07/06/2016,1.74
635,07/05/2016,1.79
636,07/01/2016,1.89
637,06/30/2016,1.815
638,06/29/2016,1.87
639,06/28/2016,1.84995
640,06/27/2016,1.725
641,06/24/2016,1.845
642,06/23/2016,1.88
643,06/22/2016,1.805
644,06/21/2016,1.6675
645,06/20/2016,1.675
646,06/17/2016,1.655
647,06/16/2016,1.585
648,06/15/2016,1.63
649,06/14/2016,1.7
650,06/13/2016,1.735
651,06/10/2016,1.8
652,06/09/2016,1.815
653,06/08/2016,1.78495
654,06/07/2016,1.745
655,06/06/2016,1.73125
656,06/03/2016,1.745
657,06/02/2016,1.68
658,06/01/2016,1.685
659,05/31/2016,1.70995
660,05/27/2016,1.74
661,05/26/2016,1.76
662,05/25/2016,1.74
663,05/24/2016,1.75
664,05/23/2016,1.765
665,05/20/2016,1.76
666,05/19/2016,1.8
667,05/18/2016,1.88
668,05/17/2016,1.93605
669,05/16/2016,1.945
670,05/13/2016,1.95
671,05/12/2016,1.95
672,05/11/2016,1.92485
673,05/10/2016,1.90275
674,05/09/2016,1.82
675,05/06/2016,1.865
676,05/05/2016,1.8775
677,05/04/2016,1.865
678,05/03/2016,1.895
679,05/02/2016,1.92
680,04/29/2016,1.995
681,04/28/2016,1.995
682,04/27/2016,1.99
683,04/26/2016,1.94
684,04/25/2016,1.925
685,04/22/2016,1.935
686,04/21/2016,1.98
687,04/20/2016,1.955
688,04/19/2016,1.87
689,04/18/2016,1.74
690,04/15/2016,1.725
691,04/14/2016,1.775
692,04/13/2016,1.817
693,04/12/2016,1.78
694,04/11/2016,1.74
695,04/08/2016,1.73
696,04/07/2016,1.675
697,04/06/2016,1.665
698,04/05/2016,1.65
699,04/04/2016,1.67925
700,04/01/2016,1.66
701,03/31/2016,1.685
702,03/30/2016,1.675
703,03/29/2016,1.61
704,03/28/2016,1.68
705,03/24/2016,1.635
706,03/23/2016,1.665
707,03/22/2016,1.685
708,03/21/2016,1.685
709,03/18/2016,1.69075
710,03/17/2016,1.675
711,03/16/2016,1.635
712,03/15/2016,1.6255
713,03/14/2016,1.695
714,03/11/2016,1.72
715,03/10/2016,1.64
716,03/09/2016,1.65015
717,03/08/2016,1.77
718,03/07/2016,1.765
719,03/04/2016,1.693
720,03/03/2016,1.57
721,03/02/2016,1.49995
722,03/01/2016,1.4525
723,02/29/2016,1.4605
724,02/26/2016,1.48
725,02/25/2016,1.42
726,02/24/2016,1.39
727,02/23/2016,1.36
728,02/22/2016,1.444
729,02/19/2016,1.37
730,02/18/2016,1.385
731,02/17/2016,1.335
732,02/16/2016,1.255
733,02/12/2016,1.255
734,02/11/2016,1.19
735,02/10/2016,1.21505
736,02/09/2016,1.22
737,02/08/2016,1.21995
738,02/05/2016,1.27
739,02/04/2016,1.315
740,02/03/2016,1.24
741,02/02/2016,1.265
742,02/01/2016,1.375
743,01/29/2016,1.415
744,01/28/2016,1.41
745,01/27/2016,1.3
746,01/26/2016,1.195
747,01/25/2016,1.18
748,01/22/2016,1.195
749,01/21/2016,1.07
750,01/20/2016,1.06
751,01/19/2016,1.16
752,01/15/2016,1.275
753,01/14/2016,1.285
754,01/13/2016,1.31195
755,01/12/2016,1.425
756,01/11/2016,1.54
757,01/08/2016,1.64
758,01/07/2016,1.669
759,01/06/2016,1.695
760,01/05/2016,1.77
761,01/04/2016,1.84
762,12/31/2015,1.785
763,12/30/2015,1.745
764,12/29/2015,1.7475
765,12/28/2015,1.88495
766,12/24/2015,1.88495
767,12/23/2015,1.82
768,12/22/2015,1.73
769,12/21/2015,1.675
770,12/18/2015,1.6525
771,12/17/2015,1.595
772,12/16/2015,1.57
773,12/15/2015,1.665
774,12/14/2015,1.62
775,12/11/2015,1.675
776,12/10/2015,1.715
777,12/09/2015,1.775
778,12/08/2015,1.75075
779,12/07/2015,1.875
780,12/04/2015,2.075
781,12/03/2015,2.145
782,12/02/2015,2.11
783,12/01/2015,2.105
784,11/30/2015,2.0025
785,11/27/2015,2.0
786,11/25/2015,2.115
787,11/24/2015,2.06
788,11/23/2015,2.035
789,11/20/2015,2.0275
790,11/19/2015,2.035
791,11/18/2015,2.085
792,11/17/2015,2.09
793,11/16/2015,2.115
794,11/13/2015,2.245
795,11/12/2015,2.39
796,11/11/2015,2.585
797,11/10/2015,2.69
798,11/09/2015,2.705
799,11/06/2015,2.72
800,11/05/2015,2.715
801,11/04/2015,2.705
802,11/03/2015,2.73505
803,11/02/2015,2.71
804,10/30/2015,2.665
805,10/29/2015,2.7175
806,10/28/2015,2.635
807,10/27/2015,2.535
808,10/26/2015,2.615
809,10/23/2015,2.655
810,10/22/2015,2.695
811,10/21/2015,2.68
812,10/20/2015,2.72555
813,10/19/2015,2.66
814,10/16/2015,2.755
815,10/15/2015,2.77
816,10/14/2015,2.73
817,10/13/2015,2.82
818,10/12/2015,2.92
819,10/09/2015,3.045
820,10/08/2015,2.97
821,10/07/2015,2.985
822,10/06/2015,2.915
823,10/05/2015,2.875
824,10/02/2015,2.735
825,10/01/2015,2.695
826,09/30/2015,2.6175
827,09/29/2015,2.6
828,09/28/2015,2.585
829,09/25/2015,2.62
830,09/24/2015,2.695
831,09/23/2015,2.775
832,09/22/2015,2.805
833,09/21/2015,2.76
834,09/18/2015,2.74
835,09/17/2015,2.87
836,09/16/2015,2.81
837,09/15/2015,2.71
838,09/14/2015,2.6485
839,09/11/2015,2.63
840,09/10/2015,2.67385
841,09/09/2015,2.805
842,09/08/2015,2.755
843,09/04/2015,2.77
844,09/03/2015,2.835
845,09/02/2015,2.96495
846,09/01/2015,3.23
847,08/31/2015,3.28
848,08/28/2015,3.25
849,08/27/2015,3.02495
850,08/26/2015,2.765
851,08/25/2015,2.745
852,08/24/2015,2.605
853,08/21/2015,2.699
854,08/20/2015,2.735
855,08/19/2015,2.7857
856,08/18/2015,2.88
857,08/17/2015,2.91
858,08/14/2015,2.98
859,08/13/2015,3.005
860,08/12/2015,3.055
861,08/11/2015,2.965
862,08/10/2015,2.955
863,08/07/2015,3.005
864,08/06/2015,2.95005
865,08/05/2015,2.995
866,08/04/2015,2.995
867,08/03/2015,2.935
868,07/31/2015,2.995
869,07/30/2015,3.01
870,07/29/2015,2.9775
871,07/28/2015,2.88
872,07/27/2015,2.785
873,07/24/2015,2.985
874,07/23/2015,3.065
875,07/22/2015,3.075
876,07/21/2015,3.1
877,07/20/2015,3.115
878,07/17/2015,3.2774
879,07/16/2015,3.52
880,07/15/2015,3.58
881,07/14/2015,3.675
882,07/13/2015,3.605
883,07/10/2015,3.7125
884,07/09/2015,3.8325
885,07/08/2015,3.795
886,07/07/2015,3.655
887,07/06/2015,3.76005
888,07/02/2015,3.935
889,07/01/2015,3.88
890,06/30/2015,3.98
891,06/29/2015,3.8975
892,06/26/2015,4.06
893,06/25/2015,4.085
894,06/24/2015,4.115
895,06/23/2015,3.95
896,06/22/2015,3.76
897,06/19/2015,3.86
898,06/18/2015,3.935
899,06/17/2015,3.99155
900,06/16/2015,3.98
901,06/15/2015,3.93
902,06/12/2015,4.015
903,06/11/2015,4.0625
904,06/10/2015,4.1875
905,06/09/2015,4.215
906,06/08/2015,4.1
907,06/05/2015,4.02
908,06/04/2015,3.985
909,06/03/2015,4.075
910,06/02/2015,4.135
911,06/01/2015,4.0475
912,05/29/2015,3.985
913,05/28/2015,3.95
914,05/27/2015,4.0375
915,05/26/2015,4.05
916,05/22/2015,4.17
917,05/21/2015,4.26
918,05/20/2015,4.135
919,05/19/2015,4.015
920,05/18/2015,4.1429
921,05/15/2015,4.1429
922,05/14/2015,4.1225
923,05/13/2015,4.11
924,05/12/2015,4.145
925,05/11/2015,4.155
926,05/08/2015,4.16
927,05/07/2015,4.29
928,05/06/2015,4.585
929,05/05/2015,4.65
930,05/04/2015,4.7175
931,05/01/2015,4.54
932,04/30/2015,4.5
933,04/29/2015,4.44125
934,04/28/2015,4.335
935,04/27/2015,4.415
936,04/24/2015,4.5
937,04/23/2015,4.4205
938,04/22/2015,4.3275
939,04/21/2015,4.315
940,04/20/2015,4.345
941,04/17/2015,4.31
942,04/16/2015,4.35715
943,04/15/2015,4.23
944,04/14/2015,4.11
945,04/13/2015,4.06
946,04/10/2015,4.04
947,04/09/2015,3.905
948,04/08/2015,3.89
949,04/07/2015,3.965
950,04/06/2015,3.915
951,04/02/2015,3.745
952,04/01/2015,3.65
953,03/31/2015,3.525
954,03/30/2015,3.515
955,03/27/2015,3.515
956,03/26/2015,3.72005
957,03/25/2015,3.42
958,03/24/2015,3.305
959,03/23/2015,3.375
960,03/20/2015,3.27
961,03/19/2015,3.075
962,03/18/2015,2.925
963,03/17/2015,2.79
964,03/16/2015,2.765
965,03/13/2015,2.815
966,03/12/2015,2.905
967,03/11/2015,2.9475
968,03/10/2015,2.925
969,03/09/2015,3.015
970,03/06/2015,3.0075
971,03/05/2015,3.11
972,03/04/2015,3.07
973,03/03/2015,3.02375
974,03/02/2015,2.895
975,02/27/2015,2.92
976,02/26/2015,2.965
977,02/25/2015,2.94
978,02/24/2015,2.91
979,02/23/2015,2.95
980,02/20/2015,3.095
981,02/19/2015,3.08
982,02/18/2015,3.2
983,02/17/2015,3.255
984,02/13/2015,3.325
985,02/12/2015,3.245
986,02/11/2015,3.05845
987,02/10/2015,3.215
988,02/09/2015,3.305
989,02/06/2015,3.2075
990,02/05/2015,3.16
991,02/04/2015,3.105
992,02/03/2015,3.35995
993,02/02/2015,3.06
994,01/30/2015,2.83005
995,01/29/2015,2.745
996,01/28/2015,2.85
997,01/27/2015,2.97
998,01/26/2015,2.88
999,01/23/2015,2.93
1000,01/22/2015,2.9595
1001,01/21/2015,3.055
1002,01/20/2015,2.9938
1003,01/16/2015,2.915
1004,01/15/2015,2.87
1005,01/14/2015,2.82
1006,01/13/2015,2.925
1007,01/12/2015,3.065